Hx field: 0.0(Oe)
Applied current: 2.0(mA)
Initial Resistance: 2715.0136Ohm

Number Hx Field(Oe) Resistance(Ohm) Real Applied Field (Oe)
0 -300.0 980.736 224.503
1 -298.0 980.7442 224.622
2 -296.0 980.7572 224.656
3 -294.0 980.7462 224.601
4 -292.0 980.7397 224.466
5 -290.0 980.7417 224.315
6 -288.0 980.7451 223.823
7 -286.0 980.7506 223.277
8 -284.0 980.7318 222.838
9 -282.0 980.7461 221.784
10 -280.0 980.7571 221.186
11 -278.0 980.7458 220.228
12 -276.0 980.7396 219.226
13 -274.0 980.7454 218.188
14 -272.0 980.751 217.134
15 -270.0 980.7643 216.072
16 -268.0 980.7746 214.992
17 -266.0 980.7743 213.902
18 -264.0 980.7865 212.8
19 -262.0 980.7973 212.056
20 -260.0 980.7949 210.913
21 -258.0 980.8093 209.746
22 -256.0 980.799 208.557
23 -254.0 980.7995 207.341
24 -252.0 980.8119 206.105
25 -250.0 980.8043 204.851
26 -248.0 980.8002 204.01
27 -246.0 980.8011 202.75
28 -244.0 980.808 201.064
29 -242.0 980.8124 199.793
30 -240.0 980.8066 198.947
31 -238.0 980.7847 197.681
32 -236.0 980.7984 195.978
33 -234.0 980.8011 195.13
34 -232.0 980.7967 193.454
35 -230.0 980.8065 192.204
36 -228.0 980.7973 190.965
37 -226.0 980.795 189.751
38 -224.0 980.8039 188.541
39 -222.0 980.7836 187.727
40 -220.0 980.7973 186.078
41 -218.0 980.7942 184.823
42 -216.0 980.7999 183.106
43 -214.0 980.8064 181.803
44 -212.0 980.8052 180.942
45 -210.0 980.8158 179.66
46 -208.0 980.8094 178.397
47 -206.0 980.8255 177.148
48 -204.0 980.8214 175.902
49 -202.0 980.8199 174.628
50 -200.0 980.8182 173.321
51 -198.0 980.8131 171.538
52 -196.0 980.8269 170.171
53 -194.0 980.8526 168.813
54 -192.0 980.8382 167.489
55 -190.0 980.8357 166.187
56 -188.0 980.8358 164.911
57 -186.0 980.8515 164.079
58 -184.0 980.8359 162.404
59 -182.0 980.8476 161.113
60 -180.0 980.8628 159.814
61 -178.0 980.8596 158.506
62 -176.0 980.8717 157.176
63 -174.0 980.8579 156.29
64 -172.0 980.8829 154.975
65 -170.0 980.8651 153.655
66 -168.0 980.8637 152.308
67 -166.0 980.8791 150.487
68 -164.0 980.8811 149.104
69 -162.0 980.8941 147.706
70 -160.0 980.8763 146.321
71 -158.0 980.9006 144.956
72 -156.0 980.8902 143.601
73 -154.0 980.904 142.263
74 -152.0 980.9037 140.948
75 -150.0 980.9198 139.189
76 -148.0 980.9051 138.306
77 -146.0 980.9085 136.989
78 -144.0 980.9164 136.108
79 -142.0 980.9212 134.762
80 -140.0 980.9089 132.919
81 -138.0 980.9333 131.99
82 -136.0 980.9364 130.571
83 -134.0 980.9333 129.122
84 -132.0 980.9295 127.675
85 -130.0 980.9306 126.719
86 -128.0 980.9484 124.809
87 -126.0 980.9542 123.392
88 -124.0 980.9697 121.991
89 -122.0 980.9732 121.057
90 -120.0 980.9773 119.642
91 -118.0 980.9883 118.213
92 -116.0 980.9883 116.772
93 -114.0 980.9876 115.798
94 -112.0 981.0181 113.835
95 -110.0 981.0082 112.357
96 -108.0 981.025 110.891
97 -106.0 981.037 109.927
98 -104.0 981.0539 108.01
99 -102.0 981.0604 107.054
100 -100.0 981.06 105.628
101 -98.0 981.0565 103.728
102 -96.0 981.0606 102.281
103 -94.0 981.0836 100.839
104 -92.0 981.0945 99.419
105 -90.0 981.0938 98.016
106 -88.0 981.1044 97.09
107 -86.0 981.1316 95.277
108 -84.0 981.145 93.922
109 -82.0 981.1525 92.559
110 -80.0 981.1792 91.18
111 -78.0 981.1956 89.787
112 -76.0 981.2087 88.376
113 -74.0 981.2135 86.974
114 -72.0 981.2265 85.584
115 -70.0 981.2474 84.19
116 -68.0 981.2506 83.259
117 -66.0 981.2832 81.866
118 -64.0 981.2798 80.467
119 -62.0 981.3154 78.566
120 -60.0 981.3446 77.124
121 -58.0 981.3551 75.684
122 -56.0 981.3692 74.237
123 -54.0 981.3877 72.793
124 -52.0 981.4303 71.842
125 -50.0 981.4561 70.43
126 -48.0 981.487 69.016
127 -46.0 981.5103 67.604
128 -44.0 981.5297 65.715
129 -42.0 981.5279 64.278
130 -40.0 981.5835 62.833
131 -38.0 981.6312 61.401
132 -36.0 981.6517 59.977
133 -34.0 981.6874 58.577
134 -32.0 981.7308 57.203
135 -30.0 981.799 55.834
136 -28.0 981.8306 54.455
137 -26.0 981.8799 53.074
138 -24.0 981.9344 51.675
139 -22.0 981.9666 50.249
140 -20.0 982.0435 49.296
141 -18.0 982.1206 47.87
142 -16.0 982.1838 46.43
143 -14.0 982.2408 44.972
144 -12.0 982.2981 43.52
145 -10.0 982.3704 42.058
146 -8.0 982.4586 40.576
147 -6.0 982.5476 39.102
148 -4.0 982.6491 38.126
149 -2.0 982.7273 36.654
150 0.0 982.9197 35.162
151 2.0 983.0195 33.676
152 4.0 983.1135 32.197
153 6.0 983.2536 30.717
154 8.0 983.3901 29.256
155 10.0 983.5402 27.828
156 12.0 983.5992 26.892
157 14.0 983.699 25.03
158 16.0 983.7816 24.092
159 18.0 983.8477 22.674
160 20.0 983.9201 21.233
161 22.0 984.0679 19.776
162 24.0 984.1616 11.6943
163 26.0 984.2785 11.6379
164 28.0 984.3567 11.5489
165 30.0 984.4367 11.2948
166 32.0 984.4534 10.8464
167 34.0 984.5542 10.1571
168 36.0 984.5985 9.208
169 38.0 984.638 8.0407
170 40.0 984.6994 6.2494
171 42.0 984.7166 4.8183
172 44.0 984.7426 3.3616
173 46.0 984.7457 1.9206
174 48.0 984.7694 -5.60731
175 50.0 984.7725 -5.60731
176 52.0 984.7636 -7.2264
177 54.0 984.7806 -7.3414
178 56.0 984.7892 -7.5913
179 58.0 984.742 -8.2289
180 60.0 984.7015 -8.9873
181 62.0 984.5763 -9.6204
182 64.0 984.2834 -10.7346
183 66.0 983.6205 -12.0076
184 68.0 982.7574 -13.3746
185 70.0 982.5756 -14.7967
186 72.0 982.3973 -16.2538
187 74.0 982.2993 -17.7331
188 76.0 982.2803 -19.2139
189 78.0 982.2217 -21.1958
190 80.0 982.173 -22.1826
191 82.0 982.0879 -23.1561
192 84.0 982.0285 -24.5985
193 86.0 981.9551 -26.0423
194 88.0 981.8879 -27.4889
195 90.0 981.844 -28.9402
196 92.0 981.7945 -30.4172
197 94.0 981.7341 -38.648
198 96.0 981.6692 -38.711
199 98.0 981.63 -38.881
200 100.0 981.5784 -39.206
201 102.0 981.5606 -39.729
202 104.0 981.498 -40.812
203 106.0 981.4613 -41.87
204 108.0 981.4293 -43.074
205 110.0 981.4054 -44.386
206 112.0 981.3724 -45.768
207 114.0 981.3456 -47.16
208 116.0 981.3362 -48.552
209 118.0 981.3135 -49.96
210 120.0 981.3025 -51.371
211 122.0 981.2691 -52.304
212 124.0 981.253 -53.711
213 126.0 981.2297 -55.141
214 128.0 981.2259 -56.586
215 130.0 981.2047 -58.548
216 132.0 981.2082 -60.06
217 134.0 981.1563 -61.074
218 136.0 981.1347 -62.594
219 138.0 981.1121 -64.116
220 140.0 981.0901 -65.632
221 142.0 981.0641 -67.123
222 144.0 981.0582 -68.605
223 146.0 981.0569 -70.095
224 148.0 981.05 -71.084
225 150.0 981.0222 -72.561
226 152.0 981.0222 -73.553
227 154.0 981.002 -75.066
228 156.0 981.0035 -76.6
229 158.0 980.991 -78.148
230 160.0 980.9958 -79.724
231 162.0 980.9728 -80.783
232 164.0 980.9687 -82.377
233 166.0 980.9492 -83.969
234 168.0 980.9439 -85.548
235 170.0 980.9405 -87.117
236 172.0 980.9378 -88.689
237 174.0 980.9326 -90.26
238 176.0 980.9168 -91.821
239 178.0 980.9006 -93.389
240 180.0 980.8972 -94.958
241 182.0 980.8989 -95.991
242 184.0 980.8961 -97.522
243 186.0 980.8858 -99.55
244 188.0 980.8869 -101.049
245 190.0 980.8707 -102.035
246 192.0 980.8704 -103.517
247 194.0 980.8602 -105.01
248 196.0 980.853 -106.502
249 198.0 980.8493 -108.002
250 200.0 980.8537 -109.517
251 202.0 980.8221 -111.026
252 204.0 980.8318 -112.524
253 206.0 980.8294 -113.521
254 208.0 980.8297 -115.499
255 210.0 980.8404 -116.964
256 212.0 980.8184 -117.943
257 214.0 980.8017 -119.921
258 216.0 980.8021 -121.414
259 218.0 980.801 -123.427
260 220.0 980.8034 -124.433
261 222.0 980.7966 -125.923
262 224.0 980.7681 -127.398
263 226.0 980.7619 -128.851
264 228.0 980.7523 -130.281
265 230.0 980.7685 -131.229
266 232.0 980.7722 -132.676
267 234.0 980.7783 -133.66
268 236.0 980.769 -135.155
269 238.0 980.7608 -137.196
270 240.0 980.7677 -138.758
271 242.0 980.7361 -140.314
272 244.0 980.7286 -141.851
273 246.0 980.7276 -143.369
274 248.0 980.7252 -144.858
275 250.0 980.7324 -146.317
276 252.0 980.7214 -147.772
277 254.0 980.7046 -149.234
278 256.0 980.697 -150.688
279 258.0 980.7023 -152.637
280 260.0 980.7016 -153.617
281 262.0 980.6937 -155.076
282 264.0 980.6855 -157.0
283 266.0 980.7115 -157.959
284 268.0 980.6958 -159.391
285 270.0 980.6927 -160.344
286 272.0 980.6611 -162.284
287 274.0 980.6759 -163.767
288 276.0 980.6607 -165.77
289 278.0 980.6833 -166.783
290 280.0 980.6645 -168.3
291 282.0 980.6678 -169.786
292 284.0 980.6586 -171.244
293 286.0 980.6644 -172.69
294 288.0 980.6486 -173.646
295 290.0 980.6524 -175.091
296 292.0 980.6428 -176.072
297 294.0 980.6475 -178.096
298 296.0 980.6424 -179.656
299 298.0 980.6434 -180.712
300 300.0 980.6187 -182.315
301 298.0 980.6379 -183.905
302 296.0 980.6331 -185.422
303 294.0 980.6548 -186.789
304 292.0 980.6431 -187.924
305 290.0 980.6482 -188.744
306 288.0 980.6493 -189.178
307 286.0 980.6714 -189.212
308 284.0 980.6549 -188.898
309 282.0 980.6382 -188.307
310 280.0 980.6567 -187.228
311 278.0 980.6423 -186.62
312 276.0 980.6505 -185.67
313 274.0 980.6505 -184.69
314 272.0 980.6652 -183.69
315 270.0 980.6651 -183.012
316 268.0 980.6518 -181.967
317 266.0 980.6659 -180.891
318 264.0 980.6663 -179.781
319 262.0 980.6591 -178.64
320 260.0 980.6741 -177.863
321 258.0 980.6658 -177.074
322 256.0 980.6634 -175.866
323 254.0 980.6535 -174.212
324 252.0 980.6645 -173.373
325 250.0 980.6651 -172.098
326 248.0 980.672 -170.803
327 246.0 980.6662 -169.504
328 244.0 980.6765 -168.208
329 242.0 980.6895 -167.346
330 240.0 980.6741 -166.051
331 238.0 980.696 -165.184
332 236.0 980.684 -163.874
333 234.0 980.6823 -162.541
334 232.0 980.6795 -161.194
335 230.0 980.6939 -159.829
336 228.0 980.689 -158.453
337 226.0 980.6983 -157.087
338 224.0 980.7161 -155.741
339 222.0 980.7145 -154.405
340 220.0 980.7209 -153.079
341 218.0 980.7243 -151.768
342 216.0 980.7288 -150.894
343 214.0 980.7292 -149.575
344 212.0 980.7261 -148.258
345 210.0 980.7391 -146.947
346 208.0 980.7439 -145.626
347 206.0 980.7446 -144.301
348 204.0 980.7419 -142.973
349 202.0 980.7501 -142.082
350 200.0 980.774 -140.269
351 198.0 980.7799 -138.894
352 196.0 980.7669 -137.512
353 194.0 980.771 -136.137
354 192.0 980.783 -134.783
355 190.0 980.7843 -133.445
356 188.0 980.7935 -132.565
357 186.0 980.7846 -131.258
358 184.0 980.7988 -129.953
359 182.0 980.7967 -128.626
360 180.0 980.8176 -127.269
361 178.0 980.8228 -125.891
362 176.0 980.818 -124.491
363 174.0 980.829 -123.553
364 172.0 980.843 -122.15
365 170.0 980.8404 -120.748
366 168.0 980.8462 -119.349
367 166.0 980.8622 -117.958
368 164.0 980.8845 -117.024
369 162.0 980.8872 -115.126
370 160.0 980.8793 -114.167
371 158.0 980.8895 -112.244
372 156.0 980.8819 -110.792
373 154.0 980.8875 -109.352
374 152.0 980.8827 -108.408
375 150.0 980.9047 -107.01
376 148.0 980.9139 -105.621
377 146.0 980.9253 -104.249
378 144.0 980.9078 -102.875
379 142.0 980.9241 -101.476
380 140.0 980.9529 -100.059
381 138.0 980.9505 -99.112
382 136.0 980.9364 -97.676
383 134.0 980.9482 -96.224
384 132.0 980.9612 -94.783
385 130.0 980.9692 -93.351
386 128.0 980.9794 -92.393
387 126.0 980.9938 -90.958
388 124.0 980.9986 -89.522
389 122.0 981.0116 -88.081
390 120.0 981.0252 -86.623
391 118.0 981.0258 -85.148
392 116.0 981.0302 -83.169
393 114.0 981.0464 -81.702
394 112.0 981.0498 -80.261
395 110.0 981.0718 -78.854
396 108.0 981.0934 -77.94
397 106.0 981.1424 -76.604
398 104.0 981.1311 -75.281
399 102.0 981.1702 -73.942
400 100.0 981.1729 -72.575
401 98.0 981.1857 -71.178
402 96.0 981.2043 -69.75
403 94.0 981.2249 -68.785
404 92.0 981.2671 -67.334
405 90.0 981.2733 -65.881
406 88.0 981.309 -64.425
407 86.0 981.3478 -62.967
408 84.0 981.3688 -61.99
409 82.0 981.402 -60.007
410 80.0 981.4418 -59.006
411 78.0 981.453 -57.501
412 76.0 981.4999 -55.989
413 74.0 981.5212 -54.474
414 72.0 981.5706 -52.984
415 70.0 981.6157 -51.03
416 68.0 981.6425 -50.061
417 66.0 981.6884 -48.63
418 64.0 981.72 -47.688
419 62.0 981.7655 -46.269
420 60.0 981.8042 -45.308
421 58.0 981.8804 -43.354
422 56.0 981.9321 -42.356
423 54.0 981.9555 -40.823
424 52.0 982.0343 -39.783
425 50.0 982.1057 -37.688
426 48.0 982.1454 -36.64
427 46.0 982.2158 -35.088
428 44.0 982.3197 -33.56
429 42.0 982.4189 -32.043
430 40.0 982.5061 -30.534
431 38.0 982.6034 -29.041
432 36.0 982.7354 -27.541
433 34.0 982.8396 -26.032
434 32.0 982.9576 -24.544
435 30.0 983.0858 -23.077
436 28.0 983.1609 -21.615
437 26.0 983.2889 -20.653
438 24.0 983.4116 -19.702
439 22.0 983.5521 -11.6048
440 20.0 983.6711 -11.5159
441 18.0 983.7277 -11.3908
442 16.0 983.8082 -11.064
443 14.0 983.8809 -10.5229
444 12.0 983.9389 -9.405
445 10.0 983.9996 -8.6949
446 8.0 984.075 -7.4786
447 6.0 984.2842 -6.1323
448 4.0 984.325 -4.7068
449 2.0 984.3647 -3.7386
450 0.0 984.4168 -2.2729
451 -2.0 984.4896 -1.7805
452 -4.0 984.5191 6.25324
453 -6.0 984.6014 7.5724
454 -8.0 984.6432 7.6798
455 -10.0 984.6748 7.9119
456 -12.0 984.6912 8.1622
457 -14.0 984.7272 8.7203
458 -16.0 984.7286 9.5359
459 -18.0 984.7241 10.586
460 -20.0 984.6768 12.277
461 -22.0 984.5147 13.6844
462 -24.0 984.1931 14.6575
463 -26.0 983.8127 16.128
464 -28.0 983.2143 17.1006
465 -30.0 982.8494 19.0442
466 -32.0 982.7081 20.5087
467 -34.0 982.5308 21.9923
468 -36.0 982.4307 23.4973
469 -38.0 982.3628 25.0258
470 -40.0 982.3196 26.0461
471 -42.0 982.2335 27.5586
472 -44.0 982.1526 29.0604
473 -46.0 982.0977 30.0585
474 -48.0 982.0259 38.066
475 -50.0 981.9615 38.117
476 -52.0 981.8935 38.294
477 -54.0 981.8378 38.63
478 -56.0 981.7824 39.181
479 -58.0 981.7288 40.001
480 -60.0 981.6771 41.068
481 -62.0 981.6507 42.316
482 -64.0 981.6219 43.226
483 -66.0 981.5749 44.68
484 -68.0 981.5247 45.682
485 -70.0 981.5063 47.198
486 -72.0 981.4841 49.246
487 -74.0 981.4441 50.284
488 -76.0 981.4214 51.853
489 -78.0 981.3999 53.43
490 -80.0 981.3541 55.004
491 -82.0 981.3404 56.554
492 -84.0 981.3047 58.083
493 -86.0 981.2663 59.592
494 -88.0 981.2378 61.07
495 -90.0 981.2255 62.531
496 -92.0 981.183 63.995
497 -94.0 981.1888 65.456
498 -96.0 981.1815 66.916
499 -98.0 981.1822 68.387
500 -100.0 981.1671 69.863
501 -102.0 981.1567 71.33
502 -104.0 981.1325 73.288
503 -106.0 981.1218 74.749
504 -108.0 981.0856 76.189
505 -110.0 981.0821 77.62
506 -112.0 981.0664 79.047
507 -114.0 981.0537 80.454
508 -116.0 981.0433 81.854
509 -118.0 981.0347 82.792
510 -120.0 981.0228 85.169
511 -122.0 981.0259 86.602
512 -124.0 981.025 88.039
513 -126.0 981.0116 89.47
514 -128.0 980.9916 90.881
515 -130.0 980.974 92.265
516 -132.0 980.9462 93.637
517 -134.0 980.9508 95.011
518 -136.0 980.9491 96.395
519 -138.0 980.9357 97.798
520 -140.0 980.9413 99.213
521 -142.0 980.9419 100.636
522 -144.0 980.9138 102.068
523 -146.0 980.8982 103.026
524 -148.0 980.8862 104.463
525 -150.0 980.8715 105.908
526 -152.0 980.8581 107.375
527 -154.0 980.8628 108.862
528 -156.0 980.8653 110.365
529 -158.0 980.8515 111.891
530 -160.0 980.8596 113.432
531 -162.0 980.8391 114.46
532 -164.0 980.8456 116.002
533 -166.0 980.8518 118.06
534 -168.0 980.8409 119.585
535 -170.0 980.8398 121.097
536 -172.0 980.8371 122.6
537 -174.0 980.8276 123.594
538 -176.0 980.8149 125.074
539 -178.0 980.8248 126.553
540 -180.0 980.8214 128.028
541 -182.0 980.808 129.499
542 -184.0 980.7972 130.487
543 -186.0 980.7968 131.989
544 -188.0 980.7859 133.5
545 -190.0 980.78 135.028
546 -192.0 980.7773 136.594
547 -194.0 980.7738 138.184
548 -196.0 980.768 139.778
549 -198.0 980.7599 141.376
550 -200.0 980.7393 142.965
551 -202.0 980.7457 144.507
552 -204.0 980.7316 146.009
553 -206.0 980.7213 147.962
554 -208.0 980.7401 149.382
555 -210.0 980.7168 150.788
556 -212.0 980.7131 152.211
557 -214.0 980.7268 153.159
558 -216.0 980.7275 154.573
559 -218.0 980.7515 156.487
560 -220.0 980.7429 157.931
561 -222.0 980.749 159.361
562 -224.0 980.7226 160.793
563 -226.0 980.7247 162.228
564 -228.0 980.7073 163.174
565 -230.0 980.73 164.594
566 -232.0 980.7348 166.527
567 -234.0 980.7258 167.507
568 -236.0 980.7265 168.993
569 -238.0 980.696 170.512
570 -240.0 980.6922 172.048
571 -242.0 980.6754 173.065
572 -244.0 980.6963 174.583
573 -246.0 980.6823 176.607
574 -248.0 980.6998 177.608
575 -250.0 980.6863 179.103
576 -252.0 980.6742 180.613
577 -254.0 980.6722 182.146
578 -256.0 980.6894 183.173
579 -258.0 980.6766 184.722
580 -260.0 980.7058 186.815
581 -262.0 980.6831 187.859
582 -264.0 980.6828 189.413
583 -266.0 980.6773 190.44
584 -268.0 980.6805 191.971
585 -270.0 980.6653 193.497
586 -272.0 980.6722 195.026
587 -274.0 980.6588 196.572
588 -276.0 980.6544 197.616
589 -278.0 980.6609 199.735
590 -280.0 980.666 200.8
591 -282.0 980.6536 202.385
592 -284.0 980.6598 203.435
593 -286.0 980.6653 205.524
594 -288.0 980.6588 207.065
595 -290.0 980.6392 208.081
596 -292.0 980.6584 210.117
597 -294.0 980.6536 211.65
598 -296.0 980.6577 213.168
599 -298.0 980.6626 214.175
600 -300.0 980.6306 216.193
